File: CuAg_meas.txt
Ag_Cu_polveri
2θ, ° Intensity, cps
20 1.085e+004
20.07 1.093e+004
20.14 1.068e+004
20.21 1.075e+004
20.28 1.092e+004
20.35 1.082e+004
20.42 1.078e+004
20.49 1.081e+004
20.56 1.079e+004
20.63 1.079e+004
20.7 1.071e+004
20.77 1.070e+004
20.84 1.074e+004
20.91 1.085e+004
20.98 1.045e+004
21.05 1.058e+004
21.12 1.071e+004
21.19 1.060e+004
21.26 1.047e+004
21.33 1.046e+004
21.4 1.053e+004
21.47 1.075e+004
21.54 1.039e+004
21.61 1.051e+004
21.68 1.027e+004
21.75 1.039e+004
21.82 1.035e+004
21.89 1.027e+004
21.96 1.021e+004
22.03 1.032e+004
22.1 1.031e+004
22.17 1.004e+004
22.24 1.033e+004
22.31 1.028e+004
22.38 1.021e+004
22.45 1.027e+004
22.52 1.002e+004
22.59 1.020e+004
22.66 1.043e+004
22.73 1.025e+004
22.8 1.026e+004
22.87 1.006e+004
22.94 1.024e+004
23.01 1.013e+004
23.08 1.019e+004
23.15 1.012e+004
23.22 9.892e+003
23.29 1.022e+004
23.36 1.003e+004
23.43 9.862e+003
23.5 1.020e+004
23.57 1.001e+004
23.64 9.948e+003
23.71 1.002e+004
23.78 1.000e+004
23.85 9.712e+003
23.92 9.748e+003
23.99 9.645e+003
24.06 9.788e+003
24.13 9.868e+003
24.2 9.842e+003
24.27 9.770e+003
24.34 9.847e+003
24.41 9.808e+003
24.48 9.935e+003
24.55 9.687e+003
24.62 9.547e+003
24.69 9.698e+003
24.76 9.705e+003
24.83 9.742e+003
24.9 9.830e+003
24.97 9.662e+003
25.04 9.625e+003
25.11 9.512e+003
25.18 9.582e+003
25.25 9.733e+003
25.32 9.540e+003
25.39 9.587e+003
25.46 9.562e+003
25.53 9.530e+003
25.6 9.453e+003
25.67 9.685e+003
25.74 9.627e+003
25.81 9.520e+003
25.88 9.560e+003
25.95 9.633e+003
26.02 9.525e+003
26.09 9.575e+003
26.16 9.415e+003
26.23 9.517e+003
26.3 9.440e+003
26.37 9.390e+003
26.44 9.322e+003
26.51 9.573e+003
26.58 9.392e+003
26.65 9.355e+003
26.72 9.442e+003
26.79 9.433e+003
26.86 9.357e+003
26.93 9.535e+003
27 9.235e+003
27.07 9.293e+003
27.14 9.438e+003
27.21 9.400e+003
27.28 9.218e+003
27.35 9.100e+003
27.42 9.193e+003
27.49 9.163e+003
27.56 9.365e+003
27.63 9.283e+003
27.7 9.422e+003
27.77 9.218e+003
27.84 9.275e+003
27.91 9.260e+003
27.98 9.098e+003
28.05 9.250e+003
28.12 9.357e+003
28.19 9.243e+003
28.26 9.092e+003
28.33 9.042e+003
28.4 9.083e+003
28.47 9.018e+003
28.54 9.225e+003
28.61 9.117e+003
28.68 8.892e+003
28.75 9.020e+003
28.82 9.158e+003
28.89 8.897e+003
28.96 8.935e+003
29.03 9.170e+003
29.1 8.960e+003
29.17 9.103e+003
29.24 9.158e+003
29.31 9.107e+003
29.38 8.963e+003
29.45 9.020e+003
29.52 8.965e+003
29.59 9.007e+003
29.66 8.917e+003
29.73 9.037e+003
29.8 8.883e+003
29.87 8.970e+003
29.94 9.080e+003
30.01 8.708e+003
30.08 8.802e+003
30.15 8.972e+003
30.22 8.800e+003
30.29 8.748e+003
30.36 8.810e+003
30.43 8.690e+003
30.5 9.047e+003
30.57 9.015e+003
30.64 8.913e+003
30.71 8.723e+003
30.78 8.815e+003
30.85 8.823e+003
30.92 9.082e+003
30.99 8.830e+003
31.06 8.810e+003
31.13 8.835e+003
31.2 8.642e+003
31.27 8.775e+003
31.34 8.810e+003
31.41 8.598e+003
31.48 8.723e+003
31.55 8.800e+003
31.62 8.717e+003
31.69 8.708e+003
31.76 8.752e+003
31.83 8.732e+003
31.9 8.502e+003
31.97 8.867e+003
32.04 8.565e+003
32.11 8.835e+003
32.18 8.585e+003
32.25 8.745e+003
32.32 8.757e+003
32.39 8.882e+003
32.46 8.578e+003
32.53 8.732e+003
32.6 8.703e+003
32.67 8.605e+003
32.74 8.585e+003
32.81 8.522e+003
32.88 8.618e+003
32.95 8.528e+003
33.02 8.590e+003
33.09 8.627e+003
33.16 8.505e+003
33.23 8.625e+003
33.3 8.710e+003
33.37 8.697e+003
33.44 8.515e+003
33.51 8.357e+003
33.58 8.537e+003
33.65 8.410e+003
33.72 8.517e+003
33.79 8.517e+003
33.86 8.517e+003
33.93 8.687e+003
34 8.605e+003
34.07 8.533e+003
34.14 8.412e+003
34.21 8.512e+003
34.28 8.403e+003
34.35 8.570e+003
34.42 8.598e+003
34.49 8.545e+003
34.56 8.637e+003
34.63 8.623e+003
34.7 8.470e+003
34.77 8.463e+003
34.84 8.443e+003
34.91 8.545e+003
34.98 8.458e+003
35.05 8.583e+003
35.12 8.455e+003
35.19 8.512e+003
35.26 8.483e+003
35.33 8.570e+003
35.4 8.797e+003
35.47 8.447e+003
35.54 8.262e+003
35.61 8.402e+003
35.68 8.363e+003
35.75 8.483e+003
35.82 8.517e+003
35.89 8.657e+003
35.96 8.730e+003
36.03 8.555e+003
36.1 8.450e+003
36.17 8.337e+003
36.24 8.602e+003
36.31 8.362e+003
36.38 8.463e+003
36.45 8.562e+003
36.52 8.517e+003
36.59 8.417e+003
36.66 8.490e+003
36.73 8.435e+003
36.8 8.505e+003
36.87 8.633e+003
36.94 8.710e+003
37.01 8.553e+003
37.08 8.675e+003
37.15 8.728e+003
37.22 8.742e+003
37.29 8.605e+003
37.36 8.695e+003
37.43 8.592e+003
37.5 8.780e+003
37.57 8.682e+003
37.64 8.852e+003
37.71 9.088e+003
37.78 9.347e+003
37.85 1.009e+004
37.92 1.084e+004
37.99 1.336e+004
38.06 1.766e+004
38.13 2.027e+004
38.2 1.825e+004
38.27 1.469e+004
38.34 1.171e+004
38.41 1.037e+004
38.48 9.555e+003
38.55 9.163e+003
38.62 9.160e+003
38.69 9.122e+003
38.76 8.747e+003
38.83 9.047e+003
38.9 9.053e+003
38.97 8.978e+003
39.04 8.687e+003
39.11 8.562e+003
39.18 8.430e+003
39.25 8.553e+003
39.32 8.418e+003
39.39 8.528e+003
39.46 8.497e+003
39.53 8.415e+003
39.6 8.295e+003
39.67 8.598e+003
39.74 8.553e+003
39.81 8.612e+003
39.88 8.425e+003
39.95 8.390e+003
40.02 8.467e+003
40.09 8.548e+003
40.16 8.608e+003
40.23 8.413e+003
40.3 8.463e+003
40.37 8.220e+003
40.44 8.542e+003
40.51 8.292e+003
40.58 8.363e+003
40.65 8.578e+003
40.72 8.515e+003
40.79 8.450e+003
40.86 8.472e+003
40.93 8.493e+003
41 8.345e+003
41.07 8.602e+003
41.14 8.602e+003
41.21 8.327e+003
41.28 8.597e+003
41.35 8.440e+003
41.42 8.510e+003
41.49 8.480e+003
41.56 8.517e+003
41.63 8.530e+003
41.7 8.863e+003
41.77 9.360e+003
41.84 9.222e+003
41.91 9.275e+003
41.98 9.477e+003
42.05 9.462e+003
42.12 9.467e+003
42.19 9.330e+003
42.26 9.382e+003
42.33 9.588e+003
42.4 9.343e+003
42.47 9.393e+003
42.54 9.502e+003
42.61 9.667e+003
42.68 9.655e+003
42.75 9.982e+003
42.82 1.008e+004
42.89 1.065e+004
42.96 1.196e+004
43.03 1.549e+004
43.1 2.266e+004
43.17 3.278e+004
43.24 8.833e+004
43.31 2.638e+005
43.38 1.354e+005
43.45 1.002e+005
43.52 3.300e+004
43.59 1.901e+004
43.66 1.357e+004
43.73 1.190e+004
43.8 1.081e+004
43.87 1.060e+004
43.94 1.062e+004
44.01 1.089e+004
44.08 1.110e+004
44.15 1.157e+004
44.22 1.210e+004
44.29 1.237e+004
44.36 1.232e+004
44.43 1.156e+004
44.5 1.083e+004
44.57 1.032e+004
44.64 1.003e+004
44.71 9.533e+003
44.78 9.433e+003
44.85 9.300e+003
44.92 9.035e+003
44.99 9.097e+003
45.06 9.097e+003
45.13 8.898e+003
45.2 9.083e+003
45.27 8.953e+003
45.34 8.933e+003
45.41 8.758e+003
45.48 8.723e+003
45.55 8.670e+003
45.62 8.565e+003
45.69 8.788e+003
45.76 8.682e+003
45.83 8.757e+003
45.9 8.870e+003
45.97 8.587e+003
46.04 8.620e+003
46.11 8.550e+003
46.18 8.733e+003
46.25 8.777e+003
46.32 8.522e+003
46.39 8.672e+003
46.46 8.742e+003
46.53 8.703e+003
46.6 8.620e+003
46.67 8.363e+003
46.74 8.627e+003
46.81 8.923e+003
46.88 8.562e+003
46.95 8.427e+003
47.02 8.455e+003
47.09 8.670e+003
47.16 8.472e+003
47.23 8.467e+003
47.3 8.355e+003
47.37 8.548e+003
47.44 8.372e+003
47.51 8.487e+003
47.58 8.380e+003
47.65 8.592e+003
47.72 8.323e+003
47.79 8.533e+003
47.86 8.638e+003
47.93 8.635e+003
48 8.450e+003
48.07 8.508e+003
48.14 8.342e+003
48.21 8.377e+003
48.28 8.322e+003
48.35 8.362e+003
48.42 8.487e+003
48.49 8.458e+003
48.56 8.722e+003
48.63 8.668e+003
48.7 8.760e+003
48.77 8.828e+003
48.84 8.855e+003
48.91 8.700e+003
48.98 8.788e+003
49.05 8.777e+003
49.12 8.880e+003
49.19 8.747e+003
49.26 8.722e+003
49.33 8.827e+003
49.4 8.747e+003
49.47 8.717e+003
49.54 8.775e+003
49.61 8.970e+003
49.68 9.132e+003
49.75 8.970e+003
49.82 9.242e+003
49.89 9.435e+003
49.96 9.750e+003
50.03 1.056e+004
50.1 1.170e+004
50.17 1.465e+004
50.24 1.864e+004
50.31 2.809e+004
50.38 5.646e+004
50.45 8.409e+004
50.52 5.889e+004
50.59 5.141e+004
50.66 2.703e+004
50.73 1.711e+004
50.8 1.288e+004
50.87 1.071e+004
50.94 9.790e+003
51.01 9.393e+003
51.08 9.165e+003
51.15 9.140e+003
51.22 8.918e+003
51.29 8.855e+003
51.36 8.522e+003
51.43 8.553e+003
51.5 8.593e+003
51.57 8.533e+003
51.64 8.515e+003
51.71 8.570e+003
51.78 8.477e+003
51.85 8.395e+003
51.92 8.298e+003
51.99 8.205e+003
52.06 8.510e+003
52.13 8.445e+003
52.2 8.368e+003
52.27 8.317e+003
52.34 8.342e+003
52.41 8.270e+003
52.48 8.387e+003
52.55 8.482e+003
52.62 8.452e+003
52.69 8.338e+003
52.76 8.237e+003
52.83 8.527e+003
52.9 8.417e+003
52.97 8.387e+003
53.04 8.455e+003
53.11 8.438e+003
53.18 8.512e+003
53.25 8.302e+003
53.32 8.428e+003
53.39 8.323e+003
53.46 8.332e+003
53.53 8.372e+003
53.6 8.163e+003
53.67 8.253e+003
53.74 8.348e+003
53.81 8.405e+003
53.88 8.278e+003
53.95 8.347e+003
54.02 8.672e+003
54.09 8.288e+003
54.16 8.330e+003
54.23 8.208e+003
54.3 8.145e+003
54.37 8.077e+003
54.44 8.170e+003
54.51 8.310e+003
54.58 8.292e+003
54.65 8.223e+003
54.72 8.382e+003
54.79 8.433e+003
54.86 8.263e+003
54.93 8.395e+003
55 8.133e+003
55.07 8.307e+003
55.14 8.268e+003
55.21 8.360e+003
55.28 8.330e+003
55.35 8.347e+003
55.42 8.328e+003
55.49 8.257e+003
55.56 8.310e+003
55.63 8.115e+003
55.7 8.158e+003
55.77 8.133e+003
55.84 8.318e+003
55.91 8.185e+003
55.98 8.250e+003
56.05 8.245e+003
56.12 8.415e+003
56.19 8.252e+003
56.26 8.245e+003
56.33 8.183e+003
56.4 8.195e+003
56.47 8.293e+003
56.54 8.090e+003
56.61 8.213e+003
56.68 8.247e+003
56.75 8.273e+003
56.82 8.037e+003
56.89 8.100e+003
56.96 8.153e+003
57.03 8.148e+003
57.1 8.270e+003
57.17 8.137e+003
57.24 8.462e+003
57.31 8.352e+003
57.38 8.395e+003
57.45 8.165e+003
57.52 8.042e+003
57.59 8.195e+003
57.66 8.238e+003
57.73 8.183e+003
57.8 8.047e+003
57.87 8.182e+003
57.94 8.152e+003
58.01 8.245e+003
58.08 8.187e+003
58.15 8.343e+003
58.22 8.268e+003
58.29 8.483e+003
58.36 8.215e+003
58.43 8.183e+003
58.5 8.338e+003
58.57 8.222e+003
58.64 8.325e+003
58.71 8.210e+003
58.78 8.240e+003
58.85 8.207e+003
58.92 8.212e+003
58.99 8.195e+003
59.06 8.008e+003
59.13 8.350e+003
59.2 8.057e+003
59.27 8.258e+003
59.34 8.325e+003
59.41 8.233e+003
59.48 8.232e+003
59.55 8.167e+003
59.62 8.083e+003
59.69 8.142e+003
59.76 8.310e+003
59.83 8.320e+003
59.9 7.997e+003
59.97 8.278e+003
60.04 8.215e+003
60.11 8.447e+003
60.18 8.327e+003
60.25 8.215e+003
60.32 8.425e+003
60.39 8.155e+003
60.46 8.078e+003
60.53 8.273e+003
60.6 8.330e+003
60.67 8.355e+003
60.74 8.348e+003
60.81 8.273e+003
60.88 8.210e+003
60.95 8.108e+003
61.02 8.165e+003
61.09 8.167e+003
61.16 8.122e+003
61.23 8.518e+003
61.3 8.185e+003
61.37 8.277e+003
61.44 8.012e+003
61.51 8.118e+003
61.58 8.208e+003
61.65 8.235e+003
61.72 8.155e+003
61.79 8.035e+003
61.86 8.390e+003
61.93 8.290e+003
62 8.118e+003
62.07 8.142e+003
62.14 8.158e+003
62.21 8.203e+003
62.28 8.118e+003
62.35 8.335e+003
62.42 8.168e+003
62.49 8.295e+003
62.56 8.267e+003
62.63 8.452e+003
62.7 8.222e+003
62.77 8.322e+003
62.84 8.265e+003
62.91 8.148e+003
62.98 8.238e+003
63.05 8.317e+003
63.12 8.168e+003
63.19 8.310e+003
63.26 8.105e+003
63.33 8.142e+003
63.4 8.165e+003
63.47 8.222e+003
63.54 8.312e+003
63.61 8.323e+003
63.68 8.330e+003
63.75 8.548e+003
63.82 8.485e+003
63.89 8.343e+003
63.96 8.525e+003
64.03 8.627e+003
64.1 8.557e+003
64.17 8.920e+003
64.24 9.043e+003
64.31 9.133e+003
64.38 9.738e+003
64.45 9.938e+003
64.52 1.020e+004
64.59 9.947e+003
64.66 9.755e+003
64.73 9.445e+003
64.8 9.035e+003
64.87 8.688e+003
64.94 8.697e+003
65.01 8.483e+003
65.08 8.395e+003
65.15 8.433e+003
65.22 8.330e+003
65.29 8.355e+003
65.36 8.323e+003
65.43 8.258e+003
65.5 8.415e+003
65.57 8.537e+003
65.64 8.348e+003
65.71 8.415e+003
65.78 8.300e+003
65.85 8.348e+003
65.92 8.395e+003
65.99 8.310e+003
66.06 8.522e+003
66.13 8.395e+003
66.2 8.473e+003
66.27 8.295e+003
66.34 8.392e+003
66.41 8.122e+003
66.48 8.323e+003
66.55 8.377e+003
66.62 8.457e+003
66.69 8.390e+003
66.76 8.362e+003
66.83 8.415e+003
66.9 8.343e+003
66.97 8.210e+003
67.04 8.212e+003
67.11 8.365e+003
67.18 8.322e+003
67.25 8.225e+003
67.32 8.292e+003
67.39 8.208e+003
67.46 8.142e+003
67.53 8.357e+003
67.6 8.355e+003
67.67 8.250e+003
67.74 8.207e+003
67.81 8.340e+003
67.88 8.195e+003
67.95 8.440e+003
68.02 8.160e+003
68.09 8.415e+003
68.16 8.227e+003
68.23 8.378e+003
68.3 8.292e+003
68.37 8.360e+003
68.44 8.212e+003
68.51 8.083e+003
68.58 8.262e+003
68.65 8.417e+003
68.72 8.437e+003
68.79 8.398e+003
68.86 8.408e+003
68.93 8.392e+003
69 8.153e+003
69.07 8.490e+003
69.14 8.427e+003
69.21 8.330e+003
69.28 8.275e+003
69.35 8.340e+003
69.42 8.343e+003
69.49 8.358e+003
69.56 8.470e+003
69.63 8.440e+003
69.7 8.077e+003
69.77 8.345e+003
69.84 8.240e+003
69.91 8.387e+003
69.98 8.462e+003
70.05 8.495e+003
70.12 8.227e+003
70.19 8.400e+003
70.26 8.578e+003
70.33 8.228e+003
70.4 8.343e+003
70.47 8.547e+003
70.54 8.535e+003
70.61 8.243e+003
70.68 8.342e+003
70.75 8.287e+003
70.82 8.382e+003
70.89 8.233e+003
70.96 8.368e+003
71.03 8.388e+003
71.1 8.512e+003
71.17 8.447e+003
71.24 8.725e+003
71.31 8.452e+003
71.38 8.515e+003
71.45 8.525e+003
71.52 8.608e+003
71.59 8.602e+003
71.66 8.398e+003
71.73 8.457e+003
71.8 8.518e+003
71.87 8.418e+003
71.94 8.483e+003
72.01 8.610e+003
72.08 8.492e+003
72.15 8.668e+003
72.22 8.495e+003
72.29 8.517e+003
72.36 8.632e+003
72.43 8.480e+003
72.5 8.583e+003
72.57 8.545e+003
72.64 8.692e+003
72.71 8.532e+003
72.78 8.663e+003
72.85 8.637e+003
72.92 8.622e+003
72.99 8.587e+003
73.06 8.678e+003
73.13 8.517e+003
73.2 8.660e+003
73.27 8.743e+003
73.34 8.788e+003
73.41 8.968e+003
73.48 8.827e+003
73.55 8.958e+003
73.62 9.253e+003
73.69 9.643e+003
73.76 1.010e+004
73.83 1.110e+004
73.9 1.273e+004
73.97 1.593e+004
74.04 2.488e+004
74.11 4.295e+004
74.18 3.378e+004
74.25 2.533e+004
74.32 2.915e+004
74.39 2.245e+004
74.46 1.545e+004
74.53 1.225e+004
74.6 1.058e+004
74.67 9.878e+003
74.74 9.298e+003
74.81 9.270e+003
74.88 8.897e+003
74.95 8.668e+003
75.02 9.027e+003
75.09 8.463e+003
75.16 8.868e+003
75.23 8.787e+003
75.3 8.475e+003
75.37 8.650e+003
75.44 8.688e+003
75.51 8.807e+003
75.58 8.625e+003
75.65 8.762e+003
75.72 8.640e+003
75.79 8.422e+003
75.86 8.768e+003
75.93 8.677e+003
76 8.605e+003
76.07 8.602e+003
76.14 8.512e+003
76.21 8.583e+003
76.28 8.643e+003
76.35 8.618e+003
76.42 8.625e+003
76.49 8.583e+003
76.56 8.892e+003
76.63 8.755e+003
76.7 8.580e+003
76.77 8.768e+003
76.84 8.757e+003
76.91 8.770e+003
76.98 8.937e+003
77.05 9.097e+003
77.12 9.495e+003
77.19 9.443e+003
77.26 9.753e+003
77.33 9.838e+003
77.4 9.967e+003
77.47 1.025e+004
77.54 1.018e+004
77.61 9.860e+003
77.68 9.950e+003
77.75 9.535e+003
77.82 9.392e+003
77.89 9.028e+003
77.96 8.973e+003
78.03 8.667e+003
78.1 8.798e+003
78.17 8.683e+003
78.24 8.850e+003
78.31 8.712e+003
78.38 8.688e+003
78.45 8.647e+003
78.52 8.662e+003
78.59 8.515e+003
78.66 8.432e+003
78.73 8.363e+003
78.8 8.340e+003
78.87 8.595e+003
78.94 8.580e+003
79.01 8.653e+003
79.08 8.692e+003
79.15 8.385e+003
79.22 8.710e+003
79.29 8.527e+003
79.36 8.592e+003
79.43 8.545e+003
79.5 8.528e+003
79.57 8.498e+003
79.64 8.640e+003
79.71 8.473e+003
79.78 8.428e+003
79.85 8.443e+003
79.92 8.627e+003
79.99 8.370e+003
80.06 8.680e+003
80.13 8.542e+003
80.2 8.695e+003
80.27 8.692e+003
80.34 8.672e+003
80.41 8.322e+003
80.48 8.528e+003
80.55 8.483e+003
80.62 8.588e+003
80.69 8.583e+003
80.76 8.600e+003
80.83 8.605e+003
80.9 8.467e+003
80.97 8.598e+003
81.04 8.585e+003
81.11 8.633e+003
81.18 8.627e+003
81.25 8.608e+003
81.32 8.540e+003
81.39 8.893e+003
81.46 8.847e+003
81.53 9.107e+003
81.6 9.112e+003
81.67 9.125e+003
81.74 9.265e+003
81.81 8.748e+003
81.88 8.847e+003
81.95 8.905e+003
82.02 8.705e+003
82.09 8.583e+003
82.16 8.627e+003
82.23 8.897e+003
82.3 8.490e+003
82.37 8.607e+003
82.44 8.557e+003
82.51 8.698e+003
82.58 8.647e+003
82.65 8.640e+003
82.72 8.415e+003
82.79 8.713e+003
82.86 8.728e+003
82.93 8.702e+003
83 8.527e+003
83.07 8.390e+003
83.14 8.728e+003
83.21 8.692e+003
83.28 8.557e+003
83.35 8.780e+003
83.42 8.523e+003
83.49 8.520e+003
83.56 8.492e+003
83.63 8.288e+003
83.7 8.352e+003
83.77 8.753e+003
83.84 8.637e+003
83.91 8.675e+003
83.98 8.593e+003
84.05 8.668e+003
84.12 8.482e+003
84.19 8.673e+003
84.26 8.603e+003
84.33 8.515e+003
84.4 8.532e+003
84.47 8.613e+003
84.54 8.532e+003
84.61 8.620e+003
84.68 8.600e+003
84.75 8.477e+003
84.82 8.728e+003
84.89 8.512e+003
84.96 8.480e+003
85.03 8.768e+003
85.1 8.570e+003
85.17 8.565e+003
85.24 8.537e+003
85.31 8.523e+003
85.38 8.355e+003
85.45 8.602e+003
85.52 8.485e+003
85.59 8.887e+003
85.66 8.567e+003
85.73 8.422e+003
85.8 8.542e+003
85.87 8.617e+003
85.94 8.683e+003
86.01 8.685e+003
86.08 8.773e+003
86.15 8.832e+003
86.22 8.460e+003
86.29 8.572e+003
86.36 8.655e+003
86.43 8.645e+003
86.5 8.820e+003
86.57 8.792e+003
86.64 8.845e+003
86.71 8.867e+003
86.78 8.675e+003
86.85 8.678e+003
86.92 8.702e+003
86.99 8.758e+003
87.06 8.557e+003
87.13 8.627e+003
87.2 8.678e+003
87.27 8.675e+003
87.34 8.918e+003
87.41 8.737e+003
87.48 8.860e+003
87.55 8.815e+003
87.62 8.828e+003
87.69 8.520e+003
87.76 8.650e+003
87.83 8.850e+003
87.9 8.402e+003
87.97 8.815e+003
88.04 8.767e+003
88.11 8.792e+003
88.18 8.677e+003
88.25 9.003e+003
88.32 8.827e+003
88.39 8.967e+003
88.46 8.985e+003
88.53 8.790e+003
88.6 8.857e+003
88.67 8.762e+003
88.74 8.848e+003
88.81 8.803e+003
88.88 9.083e+003
88.95 9.045e+003
89.02 9.197e+003
89.09 9.285e+003
89.16 9.153e+003
89.23 9.295e+003
89.3 9.702e+003
89.37 9.863e+003
89.44 1.012e+004
89.51 1.066e+004
89.58 1.132e+004
89.65 1.255e+004
89.72 1.477e+004
89.79 1.873e+004
89.86 2.627e+004
89.93 3.578e+004
90 3.094e+004
90.07 2.476e+004
90.14 2.331e+004
90.21 2.486e+004
90.28 2.148e+004
90.35 1.655e+004
90.42 1.364e+004
90.49 1.190e+004
90.56 1.067e+004
90.63 9.962e+003
90.7 9.738e+003
90.77 9.477e+003
90.84 9.252e+003
90.91 9.198e+003
90.98 9.050e+003
91.05 9.055e+003
91.12 8.943e+003
91.19 8.840e+003
91.26 8.927e+003
91.33 8.878e+003
91.4 8.827e+003
91.47 8.698e+003
91.54 8.907e+003
91.61 8.715e+003
91.68 8.763e+003
91.75 8.992e+003
91.82 8.907e+003
91.89 8.825e+003
91.96 8.870e+003
92.03 8.908e+003
92.1 8.795e+003
92.17 8.937e+003
92.24 8.613e+003
92.31 8.907e+003
92.38 9.020e+003
92.45 8.898e+003
92.52 8.907e+003
92.59 8.898e+003
92.66 8.805e+003
92.73 8.657e+003
92.8 8.810e+003
92.87 8.753e+003
92.94 8.693e+003
93.01 8.833e+003
93.08 8.857e+003
93.15 8.740e+003
93.22 8.793e+003
93.29 8.848e+003
93.36 8.858e+003
93.43 8.738e+003
93.5 8.817e+003
93.57 8.882e+003
93.64 8.908e+003
93.71 8.890e+003
93.78 8.607e+003
93.85 8.887e+003
93.92 8.855e+003
93.99 8.655e+003
94.06 8.892e+003
94.13 8.937e+003
94.2 8.845e+003
94.27 8.903e+003
94.34 8.915e+003
94.41 9.027e+003
94.48 8.940e+003
94.55 9.165e+003
94.62 8.883e+003
94.69 9.093e+003
94.76 9.213e+003
94.83 9.680e+003
94.9 9.828e+003
94.97 1.058e+004
95.04 1.208e+004
95.11 1.603e+004
95.18 1.733e+004
95.25 1.382e+004
95.32 1.237e+004
95.39 1.253e+004
95.46 1.384e+004
95.53 1.218e+004
95.6 1.078e+004
95.67 1.007e+004
95.74 9.545e+003
95.81 9.227e+003
95.88 9.023e+003
95.95 8.867e+003
96.02 8.920e+003
96.09 8.822e+003
96.16 8.700e+003
96.23 8.778e+003
96.3 9.010e+003
96.37 8.865e+003
96.44 8.743e+003
96.51 8.742e+003
96.58 8.903e+003
96.65 8.613e+003
96.72 8.533e+003
96.79 8.680e+003
96.86 8.710e+003
96.93 8.787e+003
97 8.755e+003
97.07 8.798e+003
97.14 8.872e+003
97.21 8.787e+003
97.28 8.885e+003
97.35 8.875e+003
97.42 8.982e+003
97.49 8.882e+003
97.56 8.930e+003
97.63 8.645e+003
97.7 8.925e+003
97.77 8.797e+003
97.84 8.610e+003
97.91 8.750e+003
97.98 8.932e+003
98.05 8.905e+003
98.12 8.910e+003
98.19 8.760e+003
98.26 8.845e+003
98.33 8.890e+003
98.4 8.947e+003
98.47 8.802e+003
98.54 8.952e+003
98.61 8.818e+003
98.68 8.723e+003
98.75 8.962e+003
98.82 8.907e+003
98.89 8.873e+003
98.96 8.832e+003
99.03 9.048e+003
99.1 8.903e+003
99.17 8.865e+003
99.24 8.832e+003
99.31 8.705e+003
99.38 8.687e+003
99.45 8.887e+003
99.52 8.470e+003
99.59 8.715e+003
99.66 8.633e+003
99.73 8.802e+003
99.8 8.832e+003
99.87 8.945e+003
99.94 8.803e+003
100.01 8.857e+003
100.08 8.697e+003
100.15 8.672e+003
100.22 8.905e+003
100.29 8.805e+003
100.36 8.660e+003
100.43 8.785e+003
100.5 8.782e+003
100.57 8.675e+003
100.64 8.752e+003
100.71 8.550e+003
100.78 8.810e+003
100.85 8.752e+003
100.92 8.885e+003
100.99 8.848e+003
101.06 8.800e+003
101.13 8.953e+003
101.2 8.800e+003
101.27 8.790e+003
101.34 8.817e+003
101.41 8.588e+003
101.48 8.727e+003
101.55 8.673e+003
101.62 8.752e+003
101.69 8.665e+003
101.76 8.787e+003
101.83 8.720e+003
101.9 8.812e+003
101.97 8.738e+003
102.04 8.847e+003
102.11 8.718e+003
102.18 8.745e+003
102.25 8.762e+003
102.32 8.787e+003
102.39 8.688e+003
102.46 8.760e+003
102.53 8.790e+003
102.6 8.847e+003
102.67 8.575e+003
102.74 8.638e+003
102.81 8.732e+003
102.88 8.730e+003
102.95 8.562e+003
103.02 8.683e+003
103.09 8.680e+003
103.16 8.715e+003
103.23 8.763e+003
103.3 8.913e+003
103.37 8.625e+003
103.44 8.760e+003
103.51 8.738e+003
103.58 8.830e+003
103.65 8.743e+003
103.72 8.658e+003
103.79 8.513e+003
103.86 8.987e+003
103.93 8.688e+003
104 8.695e+003
104.07 8.718e+003
104.14 8.812e+003
104.21 8.903e+003
104.28 8.577e+003
104.35 8.838e+003
104.42 8.603e+003
104.49 8.827e+003
104.56 8.737e+003
104.63 8.762e+003
104.7 8.837e+003
104.77 8.518e+003
104.84 9.070e+003
104.91 8.825e+003
104.98 8.918e+003
105.05 8.657e+003
105.12 8.705e+003
105.19 8.610e+003
105.26 8.718e+003
105.33 8.627e+003
105.4 8.900e+003
105.47 8.852e+003
105.54 8.695e+003
105.61 8.588e+003
105.68 8.650e+003
105.75 8.950e+003
105.82 8.910e+003
105.89 8.850e+003
105.96 8.690e+003
106.03 8.723e+003
106.1 8.975e+003
106.17 8.885e+003
106.24 8.543e+003
106.31 8.813e+003
106.38 8.910e+003
106.45 8.825e+003
106.52 8.748e+003
106.59 8.660e+003
106.66 8.745e+003
106.73 8.727e+003
106.8 9.018e+003
106.87 8.868e+003
106.94 8.973e+003
107.01 8.837e+003
107.08 8.863e+003
107.15 8.657e+003
107.22 8.553e+003
107.29 8.827e+003
107.36 8.787e+003
107.43 8.745e+003
107.5 8.918e+003
107.57 8.943e+003
107.64 8.725e+003
107.71 8.848e+003
107.78 8.750e+003
107.85 8.977e+003
107.92 8.612e+003
107.99 8.863e+003
108.06 8.730e+003
108.13 8.772e+003
108.2 8.925e+003
108.27 8.813e+003
108.34 9.005e+003
108.41 8.977e+003
108.48 8.897e+003
108.55 8.967e+003
108.62 8.798e+003
108.69 8.870e+003
108.76 8.942e+003
108.83 8.918e+003
108.9 8.918e+003
108.97 8.942e+003
109.04 8.845e+003
109.11 8.853e+003
109.18 8.862e+003
109.25 8.770e+003
109.32 8.997e+003
109.39 8.783e+003
109.46 8.960e+003
109.53 8.912e+003
109.6 9.030e+003
109.67 8.945e+003
109.74 8.992e+003
109.81 8.935e+003
109.88 8.855e+003
109.95 8.988e+003
110.02 9.268e+003
110.09 9.103e+003
110.16 8.933e+003
110.23 9.215e+003
110.3 9.322e+003
110.37 9.430e+003
110.44 9.317e+003
110.51 9.325e+003
110.58 9.340e+003
110.65 9.460e+003
110.72 9.298e+003
110.79 9.305e+003
110.86 9.355e+003
110.93 9.420e+003
111 9.327e+003
111.07 9.198e+003
111.14 9.253e+003
111.21 9.092e+003
111.28 9.238e+003
111.35 8.970e+003
111.42 8.937e+003
111.49 9.107e+003
111.56 8.943e+003
111.63 8.998e+003
111.7 8.983e+003
111.77 9.095e+003
111.84 8.855e+003
111.91 8.847e+003
111.98 9.040e+003
112.05 8.802e+003
112.12 9.187e+003
112.19 8.980e+003
112.26 8.957e+003
112.33 8.820e+003
112.4 8.965e+003
112.47 9.082e+003
112.54 9.013e+003
112.61 9.055e+003
112.68 9.015e+003
112.75 8.938e+003
112.82 8.863e+003
112.89 8.920e+003
112.96 9.067e+003
113.03 8.910e+003
113.1 8.988e+003
113.17 8.858e+003
113.24 9.002e+003
113.31 9.118e+003
113.38 9.048e+003
113.45 9.070e+003
113.52 8.815e+003
113.59 8.997e+003
113.66 8.973e+003
113.73 9.128e+003
113.8 9.020e+003
113.87 8.885e+003
113.94 9.125e+003
114.01 9.125e+003
114.08 9.067e+003
114.15 9.025e+003
114.22 9.242e+003
114.29 9.190e+003
114.36 9.350e+003
114.43 9.297e+003
114.5 9.357e+003
114.57 9.253e+003
114.64 9.387e+003
114.71 9.290e+003
114.78 9.455e+003
114.85 9.430e+003
114.92 9.280e+003
114.99 9.452e+003
115.06 9.298e+003
115.13 9.665e+003
115.2 9.377e+003
115.27 9.437e+003
115.34 9.263e+003
115.41 9.317e+003
115.48 9.407e+003
115.55 9.402e+003
115.62 9.235e+003
115.69 9.383e+003
115.76 9.365e+003
115.83 9.047e+003
115.9 9.255e+003
115.97 9.165e+003
116.04 9.425e+003
116.11 9.382e+003
116.18 9.083e+003
116.25 9.433e+003
116.32 9.138e+003
116.39 9.195e+003
116.46 9.470e+003
116.53 9.565e+003
116.6 9.908e+003
116.67 9.943e+003
116.74 1.051e+004
116.81 1.072e+004
116.88 1.144e+004
116.95 1.178e+004
117.02 1.140e+004
117.09 1.103e+004
117.16 1.072e+004
117.23 1.082e+004
117.3 1.073e+004
117.37 1.054e+004
117.44 1.045e+004
117.51 1.032e+004
117.58 1.002e+004
117.65 9.797e+003
117.72 9.595e+003
117.79 9.492e+003
117.86 9.467e+003
117.93 9.453e+003
118 9.088e+003
118.07 9.150e+003
118.14 9.187e+003
118.21 9.078e+003
118.28 9.238e+003
118.35 9.137e+003
118.42 9.207e+003
118.49 8.943e+003
118.56 9.058e+003
118.63 8.932e+003
118.7 9.118e+003
118.77 9.025e+003
118.84 9.147e+003
118.91 9.003e+003
118.98 9.045e+003
119.05 9.112e+003
119.12 9.165e+003
119.19 8.997e+003
119.26 9.132e+003
119.33 8.880e+003
119.4 9.073e+003
119.47 9.083e+003
119.54 8.990e+003
119.61 9.020e+003
119.68 9.032e+003
119.75 9.118e+003
119.82 9.173e+003
119.89 9.145e+003
119.96 9.208e+003
120 8.990e+003